901.txt                                 
    f [Hz]  Sp [m2s]
    0.0000    0.0000
    0.0008    0.0200
    0.0017    0.0017
    0.0025    0.0007
    0.0033    0.0572
    0.0042    0.0241
    0.0050    0.0307
    0.0058    0.0164
    0.0067    0.0234
    0.0075    0.0224
    0.0083    0.0147
    0.0092    0.0006
    0.0100    0.0142
    0.0108    0.0442
    0.0117    0.0774
    0.0125    0.0286
    0.0133    0.0109
    0.0142    0.0340
    0.0150    0.0023
    0.0158    0.0280
    0.0167    0.0147
    0.0175    0.0345
    0.0183    0.0074
    0.0192    0.0185
    0.0200    0.0179
    0.0208    0.0190
    0.0217    0.0188
    0.0225    0.0185
    0.0233    0.0181
    0.0242    0.0178
    0.0250    0.0174
    0.0258    0.0171
    0.0267    0.0167
    0.0275    0.0164
    0.0283    0.0160
    0.0292    0.0157
    0.0300    0.0154
    0.0308    0.0150
    0.0317    0.0145
    0.0325    0.0142
    0.0333    0.0139
    0.0342    0.0137
    0.0350    0.0135
    0.0358    0.0133
    0.0367    0.0130
    0.0375    0.0129
    0.0383    0.0127
    0.0392    0.0125
    0.0400    0.0124
    0.0408    0.0122
    0.0417    0.0122
    0.0425    0.0122
    0.0433    0.0122
    0.0442    0.0121
    0.0450    0.0121
    0.0458    0.0121
    0.0467    0.0120
    0.0475    0.0119
    0.0483    0.0119
    0.0492    0.0119
    0.0500    0.0119
    0.0508    0.0119
    0.0517    0.0120
    0.0525    0.0120
    0.0533    0.0121
    0.0542    0.0125
    0.0550    0.0130
    0.0558    0.0136
    0.0567    0.0141
    0.0575    0.0146
    0.0583    0.0152
    0.0592    0.0161
    0.0600    0.0169
    0.0608    0.0181
    0.0617    0.0193
    0.0625    0.0212
    0.0633    0.0243
    0.0642    0.0283
    0.0650    0.0326
    0.0658    0.0404
    0.0667    0.0483
    0.0675    0.0572
    0.0683    0.0734
    0.0692    0.0896
    0.0700    0.1154
    0.0708    0.1406
    0.0717    0.1848
    0.0725    0.2364
    0.0733    0.2908
    0.0742    0.3483
    0.0750    0.4193
    0.0758    0.5147
    0.0767    0.6117
    0.0775    0.7095
    0.0783    0.8070
    0.0792    0.9153
    0.0800    1.0195
    0.0808    1.1320
    0.0817    1.2378
    0.0825    1.3510
    0.0833    1.4704
    0.0842    1.6216
    0.0850    1.8509
    0.0858    2.0759
    0.0867    2.3345
    0.0875    2.6251
    0.0883    2.9533
    0.0892    3.2691
    0.0900    3.5900
    0.0908    3.8945
    0.0917    4.1781
    0.0925    4.4425
    0.0933    4.6868
    0.0942    4.9340
    0.0950    5.1614
    0.0958    5.3815
    0.0967    5.5825
    0.0975    5.7608
    0.0983    5.9265
    0.0992    6.0915
    0.1000    6.2543
    0.1008    6.3937
    0.1017    6.5141
    0.1025    6.6094
    0.1033    6.6875
    0.1042    6.7548
    0.1050    6.7991
    0.1058    6.8233
    0.1067    6.8218
    0.1075    6.7993
    0.1083    6.7517
    0.1092    6.6886
    0.1100    6.6170
    0.1108    6.5255
    0.1117    6.4322
    0.1125    6.3140
    0.1133    6.1900
    0.1142    6.0498
    0.1150    5.8925
    0.1158    5.7293
    0.1167    5.5694
    0.1175    5.4198
    0.1183    5.2571
    0.1192    5.0834
    0.1200    4.9004
    0.1208    4.7090
    0.1217    4.5144
    0.1225    4.3102
    0.1233    4.0810
    0.1242    3.8701
    0.1250    3.6484
    0.1258    3.4500
    0.1267    3.3193
    0.1275    3.1890
    0.1283    3.0897
    0.1292    3.0258
    0.1300    3.0115
    0.1308    3.0005
    0.1317    3.0069
    0.1325    3.0089
    0.1333    3.0185
    0.1342    3.0166
    0.1350    3.0098
    0.1358    3.0140
    0.1367    3.0168
    0.1375    3.0213
    0.1383    3.0153
    0.1392    3.0020
    0.1400    2.9852
    0.1408    2.9775
    0.1417    2.9868
    0.1425    2.9858
    0.1433    2.9795
    0.1442    2.9610
    0.1450    2.9555
    0.1458    2.9558
    0.1467    2.9543
    0.1475    2.9578
    0.1483    2.9572
    0.1492    2.9481
    0.1500    2.9271
    0.1508    2.9023
    0.1517    2.8752
    0.1525    2.8421
    0.1533    2.8129
    0.1542    2.7760
    0.1550    2.7318
    0.1558    2.6763
    0.1567    2.6133
    0.1575    2.5545
    0.1583    2.4967
    0.1592    2.4429
    0.1600    2.3873
    0.1608    2.3348
    0.1617    2.2844
    0.1625    2.2240
    0.1633    2.1730
    0.1642    2.1134
    0.1650    2.0474
    0.1658    2.0053
    0.1667    1.9566
    0.1675    1.9109
    0.1683    1.8584
    0.1692    1.8135
    0.1700    1.7643
    0.1708    1.7137
    0.1717    1.6682
    0.1725    1.6261
    0.1733    1.5921
    0.1742    1.5609
    0.1750    1.5488
    0.1758    1.5318
    0.1767    1.5207
    0.1775    1.5052
    0.1783    1.4953
    0.1792    1.4830
    0.1800    1.4650
    0.1808    1.4483
    0.1817    1.4259
    0.1825    1.3988
    0.1833    1.3772
    0.1842    1.3521
    0.1850    1.3352
    0.1858    1.3157
    0.1867    1.3094
    0.1875    1.3045
    0.1883    1.3048
    0.1892    1.3149
    0.1900    1.3283
    0.1908    1.3403
    0.1917    1.3487
    0.1925    1.3518
    0.1933    1.3504
    0.1942    1.3444
    0.1950    1.3377
    0.1958    1.3291
    0.1967    1.3206
    0.1975    1.3088
    0.1983    1.2954
    0.1992    1.2803
    0.2000    1.2658
    0.2008    1.2542
    0.2017    1.2411
    0.2025    1.2319
    0.2033    1.2208
    0.2042    1.2090
    0.2050    1.1917
    0.2058    1.1701
    0.2067    1.1480
    0.2075    1.1256
    0.2083    1.1000
    0.2092    1.0747
    0.2100    1.0470
    0.2108    1.0196
    0.2117    0.9901
    0.2125    0.9629
    0.2133    0.9357
    0.2142    0.9053
    0.2150    0.8810
    0.2158    0.8588
    0.2167    0.8379
    0.2175    0.8147
    0.2183    0.7940
    0.2192    0.7723
    0.2200    0.7514
    0.2208    0.7325
    0.2217    0.7126
    0.2225    0.6900
    0.2233    0.6655
    0.2242    0.6406
    0.2250    0.6179
    0.2258    0.5988
    0.2267    0.5908
    0.2275    0.5841
    0.2283    0.5776
    0.2292    0.5735
    0.2300    0.5708
    0.2308    0.5701
    0.2317    0.5670
    0.2325    0.5705
    0.2333    0.5740
    0.2342    0.5755
    0.2350    0.5747
    0.2358    0.5738
    0.2367    0.5759
    0.2375    0.5774
    0.2383    0.5788
    0.2392    0.5792
    0.2400    0.5816
    0.2408    0.5851
    0.2417    0.5925
    0.2425    0.5977
    0.2433    0.6064
    0.2442    0.6158
    0.2450    0.6265
    0.2458    0.6388
    0.2467    0.6485
    0.2475    0.6574
    0.2483    0.6648
    0.2492    0.6711
    0.2500    0.6753
    0.2508    0.6771
    0.2517    0.6766
    0.2525    0.6751
    0.2533    0.6713
    0.2542    0.6707
    0.2550    0.6684
    0.2558    0.6641
    0.2567    0.6593
    0.2575    0.6527
    0.2583    0.6450
    0.2592    0.6358
    0.2600    0.6277
    0.2608    0.6194
    0.2617    0.6115
    0.2625    0.6046
    0.2633    0.5970
    0.2642    0.5872
    0.2650    0.5761
    0.2658    0.5643
    0.2667    0.5535
    0.2675    0.5513
    0.2683    0.5469
    0.2692    0.5409
    0.2700    0.5333
    0.2708    0.5255
    0.2717    0.5162
    0.2725    0.5055
    0.2733    0.4927
    0.2742    0.4862
    0.2750    0.4810
    0.2758    0.4751
    0.2767    0.4673
    0.2775    0.4599
    0.2783    0.4534
    0.2792    0.4470
    0.2800    0.4408
    0.2808    0.4329
    0.2817    0.4257
    0.2825    0.4189
    0.2833    0.4116
    0.2842    0.4034
    0.2850    0.3998
    0.2858    0.3952
    0.2867    0.3920
    0.2875    0.3884
    0.2883    0.3858
    0.2892    0.3830
    0.2900    0.3797
    0.2908    0.3764
    0.2917    0.3729
    0.2925    0.3682
    0.2933    0.3623
    0.2942    0.3572
    0.2950    0.3506
    0.2958    0.3459
    0.2967    0.3408
    0.2975    0.3344
    0.2983    0.3282
    0.2992    0.3226
    0.3000    0.3180
    0.3008    0.3127
    0.3017    0.3077
    0.3025    0.3031
    0.3033    0.2987
    0.3042    0.2952
    0.3050    0.2906
    0.3058    0.2863
    0.3067    0.2808
    0.3075    0.2748
    0.3083    0.2705
    0.3092    0.2710
    0.3100    0.2715
    0.3108    0.2723
    0.3117    0.2727
    0.3125    0.2733
    0.3133    0.2729
    0.3142    0.2725
    0.3150    0.2713
    0.3158    0.2701
    0.3167    0.2695
    0.3175    0.2689
    0.3183    0.2686
    0.3192    0.2677
    0.3200    0.2665
    0.3208    0.2654
    0.3217    0.2635
    0.3225    0.2611
    0.3233    0.2585
    0.3242    0.2550
    0.3250    0.2515
    0.3258    0.2480
    0.3267    0.2436
    0.3275    0.2395
    0.3283    0.2354
    0.3292    0.2308
    0.3300    0.2281
    0.3308    0.2245
    0.3317    0.2210
    0.3325    0.2171
    0.3333    0.2133
    0.3342    0.2093
    0.3350    0.2048
    0.3358    0.2002
    0.3367    0.1951
    0.3375    0.1908
    0.3383    0.1858
    0.3392    0.1802
    0.3400    0.1745
    0.3408    0.1698
    0.3417    0.1654
    0.3425    0.1602
    0.3433    0.1547
    0.3442    0.1500
    0.3450    0.1459
    0.3458    0.1430
    0.3467    0.1401
    0.3475    0.1384
    0.3483    0.1366
    0.3492    0.1345
    0.3500    0.1328
    0.3508    0.1308
    0.3517    0.1293
    0.3525    0.1285
    0.3533    0.1275
    0.3542    0.1263
    0.3550    0.1247
    0.3558    0.1237
    0.3567    0.1226
    0.3575    0.1219
    0.3583    0.1210
    0.3592    0.1200
    0.3600    0.1197
    0.3608    0.1194
    0.3617    0.1188
    0.3625    0.1182
    0.3633    0.1172
    0.3642    0.1165
    0.3650    0.1164
    0.3658    0.1159
    0.3667    0.1150
    0.3675    0.1138
    0.3683    0.1127
    0.3692    0.1128
    0.3700    0.1132
    0.3708    0.1134
    0.3717    0.1140
    0.3725    0.1141
    0.3733    0.1139
    0.3742    0.1137
    0.3750    0.1133
    0.3758    0.1125
    0.3767    0.1116
    0.3775    0.1101
    0.3783    0.1087
    0.3792    0.1069
    0.3800    0.1048
    0.3808    0.1024
    0.3817    0.1003
    0.3825    0.0979
    0.3833    0.0956
    0.3842    0.0929
    0.3850    0.0899
    0.3858    0.0878
    0.3867    0.0855
    0.3875    0.0835
    0.3883    0.0816
    0.3892    0.0800
    0.3900    0.0785
    0.3908    0.0769
    0.3917    0.0752
    0.3925    0.0738
    0.3933    0.0723
    0.3942    0.0712
    0.3950    0.0704
    0.3958    0.0700
    0.3967    0.0694
    0.3975    0.0688
    0.3983    0.0682
    0.3992    0.0674
    0.4000    0.0667
    0.4008    0.0662
    0.4017    0.0657
    0.4025    0.0653
    0.4033    0.0650
    0.4042    0.0644
    0.4050    0.0638
    0.4058    0.0631
    0.4067    0.0625
    0.4075    0.0620
    0.4083    0.0613
    0.4092    0.0608
    0.4100    0.0609
    0.4108    0.0615
    0.4117    0.0619
    0.4125    0.0624
    0.4133    0.0632
    0.4142    0.0638
    0.4150    0.0645
    0.4158    0.0651
    0.4167    0.0657
    0.4175    0.0662
    0.4183    0.0668
    0.4192    0.0673
    0.4200    0.0675
    0.4208    0.0675
    0.4217    0.0675
    0.4225    0.0671
    0.4233    0.0668
    0.4242    0.0662
    0.4250    0.0660
    0.4258    0.0657
    0.4267    0.0652
    0.4275    0.0651
    0.4283    0.0650
    0.4292    0.0649
    0.4300    0.0648
    0.4308    0.0648
    0.4317    0.0647
    0.4325    0.0644
    0.4333    0.0640
    0.4342    0.0636
    0.4350    0.0633
    0.4358    0.0628
    0.4367    0.0621
    0.4375    0.0621
    0.4383    0.0619
    0.4392    0.0615
    0.4400    0.0611
    0.4408    0.0605
    0.4417    0.0597
    0.4425    0.0588
    0.4433    0.0581
    0.4442    0.0572
    0.4450    0.0564
    0.4458    0.0556
    0.4467    0.0548
    0.4475    0.0538
    0.4483    0.0529
    0.4492    0.0522
    0.4500    0.0514
    0.4508    0.0507
    0.4517    0.0503
    0.4525    0.0499
    0.4533    0.0494
    0.4542    0.0489
    0.4550    0.0486
    0.4558    0.0483
    0.4567    0.0478
    0.4575    0.0471
    0.4583    0.0464
    0.4592    0.0459
    0.4600    0.0455
    0.4608    0.0451
    0.4617    0.0446
    0.4625    0.0442
    0.4633    0.0436
    0.4642    0.0429
    0.4650    0.0422
    0.4658    0.0414
    0.4667    0.0408
    0.4675    0.0401
    0.4683    0.0394
    0.4692    0.0389
    0.4700    0.0384
    0.4708    0.0380
    0.4717    0.0377
    0.4725    0.0374
    0.4733    0.0372
    0.4742    0.0369
    0.4750    0.0365
    0.4758    0.0361
    0.4767    0.0356
    0.4775    0.0351
    0.4783    0.0347
    0.4792    0.0345
    0.4800    0.0342
    0.4808    0.0339
    0.4817    0.0336
    0.4825    0.0331
    0.4833    0.0327
    0.4842    0.0322
    0.4850    0.0317
    0.4858    0.0312
    0.4867    0.0305
    0.4875    0.0300
    0.4883    0.0297
    0.4892    0.0297
    0.4900    0.0297
    0.4908    0.0299
    0.4917    0.0300
    0.4925    0.0300
    0.4933    0.0299
    0.4942    0.0299
    0.4950    0.0300
    0.4958    0.0299
    0.4967    0.0300
    0.4975    0.0301
    0.4983    0.0300
    0.4992    0.0301
    0.5000    0.0301
    0.5008    0.0302
    0.5017    0.0303
    0.5025    0.0304
    0.5033    0.0305
    0.5042    0.0305
    0.5050    0.0305
    0.5058    0.0306
    0.5067    0.0306
    0.5075    0.0306
    0.5083    0.0305
    0.5092    0.0304
    0.5100    0.0303
    0.5108    0.0303
    0.5117    0.0302
    0.5125    0.0301
    0.5133    0.0300
    0.5142    0.0299
    0.5150    0.0299
    0.5158    0.0298
    0.5167    0.0296
    0.5175    0.0293
    0.5183    0.0290
    0.5192    0.0286
    0.5200    0.0284
    0.5208    0.0282
    0.5217    0.0280
    0.5225    0.0278
    0.5233    0.0275
    0.5242    0.0273
    0.5250    0.0271
    0.5258    0.0269
    0.5267    0.0265
    0.5275    0.0261
    0.5283    0.0256
    0.5292    0.0251
    0.5300    0.0246
    0.5308    0.0243
    0.5317    0.0242
    0.5325    0.0246
    0.5333    0.0249
    0.5342    0.0251
    0.5350    0.0252
    0.5358    0.0252
    0.5367    0.0252
    0.5375    0.0253
    0.5383    0.0253
    0.5392    0.0254
    0.5400    0.0254
    0.5408    0.0254
    0.5417    0.0254
    0.5425    0.0254
    0.5433    0.0253
    0.5442    0.0252
    0.5450    0.0250
    0.5458    0.0248
    0.5467    0.0246
    0.5475    0.0244
    0.5483    0.0241
    0.5492    0.0239
    0.5500    0.0236
    0.5508    0.0234
    0.5517    0.0231
    0.5525    0.0229
    0.5533    0.0225
    0.5542    0.0222
    0.5550    0.0219
    0.5558    0.0217
    0.5567    0.0215
    0.5575    0.0213
    0.5583    0.0211
    0.5592    0.0209
    0.5600    0.0205
    0.5608    0.0202
    0.5617    0.0199
    0.5625    0.0196
    0.5633    0.0193
    0.5642    0.0189
    0.5650    0.0185
    0.5658    0.0181
    0.5667    0.0177
    0.5675    0.0174
    0.5683    0.0171
    0.5692    0.0167
    0.5700    0.0163
    0.5708    0.0159
    0.5717    0.0154
    0.5725    0.0149
    0.5733    0.0145
    0.5742    0.0145
    0.5750    0.0145
    0.5758    0.0145
    0.5767    0.0145
    0.5775    0.0144
    0.5783    0.0143
    0.5792    0.0143
    0.5800    0.0144
    0.5808    0.0145
    0.5817    0.0146
    0.5825    0.0147
    0.5833    0.0147
    0.5842    0.0147
    0.5850    0.0148
    0.5858    0.0149
    0.5867    0.0150
    0.5875    0.0151
    0.5883    0.0152
    0.5892    0.0154
    0.5900    0.0154
    0.5908    0.0155
    0.5917    0.0156
    0.5925    0.0156
    0.5933    0.0156
    0.5942    0.0156
    0.5950    0.0156
    0.5958    0.0157
    0.5967    0.0158
    0.5975    0.0159
    0.5983    0.0159
    0.5992    0.0161
    0.6000    0.0162
    0.6008    0.0163
    0.6017    0.0163
    0.6025    0.0164
    0.6033    0.0164
    0.6042    0.0165
    0.6050    0.0164
    0.6058    0.0164
    0.6067    0.0165
    0.6075    0.0166
    0.6083    0.0167
    0.6092    0.0169
    0.6100    0.0170
    0.6108    0.0170
    0.6117    0.0171
    0.6125    0.0172
    0.6133    0.0172
    0.6142    0.0171
    0.6150    0.0170
    0.6158    0.0170
    0.6167    0.0171
    0.6175    0.0171
    0.6183    0.0171
    0.6192    0.0172
    0.6200    0.0172
    0.6208    0.0172
    0.6217    0.0171
    0.6225    0.0171
    0.6233    0.0170
    0.6242    0.0169
    0.6250    0.0167
    0.6258    0.0165
    0.6267    0.0162
    0.6275    0.0160
    0.6283    0.0158
    0.6292    0.0155
    0.6300    0.0153
    0.6308    0.0151
    0.6317    0.0149
    0.6325    0.0146
    0.6333    0.0142
    0.6342    0.0138
    0.6350    0.0134
    0.6358    0.0131
    0.6367    0.0128
    0.6375    0.0125
    0.6383    0.0122
    0.6392    0.0119
    0.6400    0.0117
    0.6408    0.0114
    0.6417    0.0112
    0.6425    0.0109
    0.6433    0.0106
    0.6442    0.0103
    0.6450    0.0100
    0.6458    0.0097
    0.6467    0.0094
    0.6475    0.0091
    0.6483    0.0090
    0.6492    0.0089
    0.6500    0.0088
    0.6508    0.0086
    0.6517    0.0086
    0.6525    0.0085
    0.6533    0.0083
    0.6542    0.0082
    0.6550    0.0081
    0.6558    0.0080
    0.6567    0.0079
    0.6575    0.0078
    0.6583    0.0078
    0.6592    0.0079
    0.6600    0.0079
    0.6608    0.0081
    0.6617    0.0081
    0.6625    0.0082
    0.6633    0.0083
    0.6642    0.0083
    0.6650    0.0085
    0.6658    0.0086
    0.6667    0.0087
    0.6675    0.0087
    0.6683    0.0088
    0.6692    0.0088
    0.6700    0.0089
    0.6708    0.0089
    0.6717    0.0089
    0.6725    0.0089
    0.6733    0.0090
    0.6742    0.0090
    0.6750    0.0090
    0.6758    0.0090
    0.6767    0.0090
    0.6775    0.0090
    0.6783    0.0090
    0.6792    0.0090
    0.6800    0.0089
    0.6808    0.0089
    0.6817    0.0089
    0.6825    0.0089
    0.6833    0.0088
    0.6842    0.0088
    0.6850    0.0088
    0.6858    0.0087
    0.6867    0.0086
    0.6875    0.0085
    0.6883    0.0084
    0.6892    0.0083
    0.6900    0.0083
    0.6908    0.0082
    0.6917    0.0081
    0.6925    0.0080
    0.6933    0.0080
    0.6942    0.0080
    0.6950    0.0080
    0.6958    0.0079
    0.6967    0.0079
    0.6975    0.0079
    0.6983    0.0079
    0.6992    0.0079
    0.7000    0.0079
    0.7008    0.0080
    0.7017    0.0080
    0.7025    0.0080
    0.7033    0.0080
    0.7042    0.0080
    0.7050    0.0079
    0.7058    0.0080
    0.7067    0.0080
    0.7075    0.0080
    0.7083    0.0081
    0.7092    0.0081
    0.7100    0.0081
    0.7108    0.0081
    0.7117    0.0082
    0.7125    0.0082
    0.7133    0.0082
    0.7142    0.0082
    0.7150    0.0082
    0.7158    0.0082
    0.7167    0.0083
    0.7175    0.0083
    0.7183    0.0083
    0.7192    0.0083
    0.7200    0.0083
    0.7208    0.0083
    0.7217    0.0082
    0.7225    0.0082
    0.7233    0.0081
    0.7242    0.0081
    0.7250    0.0081
    0.7258    0.0081
    0.7267    0.0081
    0.7275    0.0081
    0.7283    0.0080
    0.7292    0.0080
    0.7300    0.0079
    0.7308    0.0078
    0.7317    0.0077
    0.7325    0.0076
    0.7333    0.0074
    0.7342    0.0073
    0.7350    0.0073
    0.7358    0.0072
    0.7367    0.0072
    0.7375    0.0072
    0.7383    0.0071
    0.7392    0.0070
    0.7400    0.0070
    0.7408    0.0069
    0.7417    0.0068
    0.7425    0.0067
    0.7433    0.0066
    0.7442    0.0065
    0.7450    0.0064
    0.7458    0.0062
    0.7467    0.0061
    0.7475    0.0061
    0.7483    0.0060
    0.7492    0.0059
    0.7500    0.0059
    0.7508    0.0058
    0.7517    0.0057
    0.7525    0.0056
    0.7533    0.0055
    0.7542    0.0055
    0.7550    0.0054
    0.7558    0.0053
    0.7567    0.0052
    0.7575    0.0051
    0.7583    0.0050
    0.7592    0.0049
    0.7600    0.0048
    0.7608    0.0048
    0.7617    0.0047
    0.7625    0.0046
    0.7633    0.0045
    0.7642    0.0045
    0.7650    0.0044
    0.7658    0.0044
    0.7667    0.0044
    0.7675    0.0044
    0.7683    0.0044
    0.7692    0.0044
    0.7700    0.0044
    0.7708    0.0044
    0.7717    0.0043
    0.7725    0.0043
    0.7733    0.0043
    0.7742    0.0043
    0.7750    0.0043
    0.7758    0.0042
    0.7767    0.0042
    0.7775    0.0042
    0.7783    0.0042
    0.7792    0.0042
    0.7800    0.0043
    0.7808    0.0043
    0.7817    0.0044
    0.7825    0.0045
    0.7833    0.0045
    0.7842    0.0046
    0.7850    0.0046
    0.7858    0.0047
    0.7867    0.0047
    0.7875    0.0048
    0.7883    0.0048
    0.7892    0.0049
    0.7900    0.0049
    0.7908    0.0050
    0.7917    0.0050
    0.7925    0.0051
    0.7933    0.0052
    0.7942    0.0052
    0.7950    0.0053
    0.7958    0.0053
    0.7967    0.0053
    0.7975    0.0053
    0.7983    0.0053
    0.7992    0.0053
    0.8000    0.0052
    0.8008    0.0052
    0.8017    0.0052
    0.8025    0.0051
    0.8033    0.0051
    0.8042    0.0050
    0.8050    0.0050
    0.8058    0.0050
    0.8067    0.0049
    0.8075    0.0049
    0.8083    0.0049
    0.8092    0.0048
    0.8100    0.0047
    0.8108    0.0047
    0.8117    0.0046
    0.8125    0.0045
    0.8133    0.0044
    0.8142    0.0043
    0.8150    0.0042
    0.8158    0.0041
    0.8167    0.0039
    0.8175    0.0038
    0.8183    0.0037
    0.8192    0.0036
    0.8200    0.0034
    0.8208    0.0033
    0.8217    0.0033
    0.8225    0.0032
    0.8233    0.0032
    0.8242    0.0032
    0.8250    0.0032
    0.8258    0.0032
    0.8267    0.0032
    0.8275    0.0032
    0.8283    0.0032
    0.8292    0.0032
    0.8300    0.0032
    0.8308    0.0032
    0.8317    0.0033
    0.8325    0.0033
    0.8333    0.0033
    0.8342    0.0034
    0.8350    0.0034
    0.8358    0.0035
    0.8367    0.0036
    0.8375    0.0036
    0.8383    0.0037
    0.8392    0.0037
    0.8400    0.0037
    0.8408    0.0038
    0.8417    0.0039
    0.8425    0.0039
    0.8433    0.0040
    0.8442    0.0041
    0.8450    0.0042
    0.8458    0.0042
    0.8467    0.0043
    0.8475    0.0043
    0.8483    0.0044
    0.8492    0.0044
    0.8500    0.0044
    0.8508    0.0045
    0.8517    0.0045
    0.8525    0.0045
    0.8533    0.0045
    0.8542    0.0045
    0.8550    0.0045
    0.8558    0.0044
    0.8567    0.0044
    0.8575    0.0043
    0.8583    0.0042
    0.8592    0.0041
    0.8600    0.0040
    0.8608    0.0039
    0.8617    0.0038
    0.8625    0.0037
    0.8633    0.0036
    0.8642    0.0036
    0.8650    0.0035
    0.8658    0.0034
    0.8667    0.0033
    0.8675    0.0032
    0.8683    0.0031
    0.8692    0.0031
    0.8700    0.0030
    0.8708    0.0029
    0.8717    0.0029
    0.8725    0.0029
    0.8733    0.0028
    0.8742    0.0028
    0.8750    0.0028
    0.8758    0.0027
    0.8767    0.0027
    0.8775    0.0027
    0.8783    0.0027
    0.8792    0.0026
    0.8800    0.0026
    0.8808    0.0026
    0.8817    0.0025
    0.8825    0.0025
    0.8833    0.0025
    0.8842    0.0025
    0.8850    0.0025
    0.8858    0.0025
    0.8867    0.0025
    0.8875    0.0025
    0.8883    0.0026
    0.8892    0.0026
    0.8900    0.0026
    0.8908    0.0026
    0.8917    0.0026
    0.8925    0.0026
    0.8933    0.0026
    0.8942    0.0026
    0.8950    0.0026
    0.8958    0.0027
    0.8967    0.0027
    0.8975    0.0027
    0.8983    0.0027
    0.8992    0.0027
    0.9000    0.0028
    0.9008    0.0028
    0.9017    0.0028
    0.9025    0.0029
    0.9033    0.0029
    0.9042    0.0029
    0.9050    0.0029
    0.9058    0.0029
    0.9067    0.0029
    0.9075    0.0029
    0.9083    0.0030
    0.9092    0.0030
    0.9100    0.0030
    0.9108    0.0030
    0.9117    0.0031
    0.9125    0.0031
    0.9133    0.0031
    0.9142    0.0031
    0.9150    0.0031
    0.9158    0.0032
    0.9167    0.0032
    0.9175    0.0032
    0.9183    0.0032
    0.9192    0.0033
    0.9200    0.0033
    0.9208    0.0033
    0.9217    0.0033
    0.9225    0.0033
    0.9233    0.0032
    0.9242    0.0032
    0.9250    0.0032
    0.9258    0.0032
    0.9267    0.0032
    0.9275    0.0032
    0.9283    0.0032
    0.9292    0.0032
    0.9300    0.0031
    0.9308    0.0031
    0.9317    0.0031
    0.9325    0.0031
    0.9333    0.0030
    0.9342    0.0030
    0.9350    0.0030
    0.9358    0.0029
    0.9367    0.0029
    0.9375    0.0029
    0.9383    0.0028
    0.9392    0.0028
    0.9400    0.0028
    0.9408    0.0028
    0.9417    0.0028
    0.9425    0.0028
    0.9433    0.0027
    0.9442    0.0027
    0.9450    0.0027
    0.9458    0.0027
    0.9467    0.0027
    0.9475    0.0027
    0.9483    0.0027
    0.9492    0.0027
    0.9500    0.0027
    0.9508    0.0027
    0.9517    0.0028
    0.9525    0.0028
    0.9533    0.0028
    0.9542    0.0028
    0.9550    0.0028
    0.9558    0.0029
    0.9567    0.0029
    0.9575    0.0029
    0.9583    0.0029
    0.9592    0.0030
    0.9600    0.0030
    0.9608    0.0030
    0.9617    0.0030
    0.9625    0.0029
    0.9633    0.0029
    0.9642    0.0029
    0.9650    0.0029
    0.9658    0.0029
    0.9667    0.0029
    0.9675    0.0029
    0.9683    0.0029
    0.9692    0.0029
    0.9700    0.0029
    0.9708    0.0029
    0.9717    0.0029
    0.9725    0.0029
    0.9733    0.0029
    0.9742    0.0028
    0.9750    0.0028
    0.9758    0.0028
    0.9767    0.0028
    0.9775    0.0027
    0.9783    0.0027
    0.9792    0.0027
    0.9800    0.0005
    0.9808    0.0006
    0.9817    0.0000
    0.9825    0.0014
    0.9833    0.0058
    0.9842    0.0034
    0.9850    0.0024
    0.9858    0.0027
    0.9867    0.0057
    0.9875    0.0055
    0.9883    0.0020
    0.9892    0.0018
    0.9900    0.0016
    0.9908    0.0002
    0.9917    0.0002
    0.9925    0.0008
    0.9933    0.0012
    0.9942    0.0029
    0.9950    0.0008
    0.9958    0.0010
    0.9967    0.0025
    0.9975    0.0001
    0.9983    0.0002
    0.9992    0.0009
    1.0000    0.0021
